{
   "resourceType":"Bundle",
   "type":"transaction",
   "entry":[
      {
         "resource":{
            "resourceType":"Observation",
            "id":"029fea84-0e29-4530-a62e-ea00ffb067e4",
            "status":"final",
            "code": {
				"coding": [{
					"system": "http://fhir.org/guides/who/anc-cds/CodeSystem/anc-custom-codes",
					"code": "ANC.B8.DE17",
					"display": "Systolic blood pressure"
				}]
			},
            "subject":{
               "reference":"Patient/457865b6-8f02-49e2-8a77-21b73eb266d4"
             },
            "encounter":{
               "reference":"Encounter/2d0ecfb4-9dec-4daa-a261-e37e426d0d7b"
            },
            "effectiveDateTime":"2021-01-26T08:14:44+00:00",
            "issued":"2021-01-26T08:14:44.000+00:00",
            "valueQuantity":{
               "value": 88,
               "system": "http://unitsofmeasure.org",
			   "code": "mm[Hg]"
            }
         }
      },
      {
         "resource":{
            "resourceType":"Observation",
            "id":"119fea84-0e29-4530-a62e-ea00ffb067e4",
            "status":"final",
            "code": {
				"coding": [{
					"system": "http://fhir.org/guides/who/anc-cds/CodeSystem/anc-custom-codes",
					"code": "ANC.B6.DE17",
					"display": "Gestational age"
				}]
			},
            "subject":{
               "reference":"Patient/457865b6-8f02-49e2-8a77-21b73eb266d4"
             },
            "encounter":{
               "reference":"Encounter/2d0ecfb4-9dec-4daa-a261-e37e426d0d7b"
            },
            "effectiveDateTime":"2021-01-26T08:14:44+00:00",
            "issued":"2021-01-26T08:14:44.000+00:00",
            "valueQuantity":{
               "value": 12,
               "system": "http://unitsofmeasure.org",
			   "code": "wk"
            }
         }
      },
      {
         "resource":{
            "resourceType":"Observation",
            "id":"1aa6d708-653c-485b-a413-ef9b7541213f",
            "status":"final",
            "category":[
               {
                  "coding":[
                     {
                        "system":"http://terminology.hl7.org/CodeSystem/observation-category",
                        "code":"exam",
                        "display":"Exam"
                     }
                  ]
               }
            ],
            "code":{
               "coding":[
                  {
                     "code":"5089AAAAAAAAAAAAAAAAAAAAAAAAAAAAAAAA",
                     "display":"Weight (kg)"
                  },
                  {
                     "system":"https://openconceptlab.org/orgs/CIEL/sources/CIEL",
                     "code":"5089",
                     "display":"Weight (kg)"
                  }
               ]
            },
            "subject":{
               "reference":"Patient/5f5a1daf-e25b-43c7-9b4f-6764294abe1a",
               "type":"Patient",
               "display":"obs_patient1 obs_patient1 obs_patient1 (OpenMRS ID: 10002T)"
            },
            "encounter":{
               "reference":"Encounter/95feb82a-b2b1-4b1a-9f9b-c1920a9d895e",
               "type":"Encounter"
            },
            "effectiveDateTime":"2021-01-26T08:15:30+00:00",
            "issued":"2021-01-26T08:15:30.000+00:00",
            "valueQuantity":{
               "value":99
            }
         },
         "request":{
            "method":"POST",
            "url":"Observation"
         }
      },
      {
         "resource":{
            "resourceType":"Observation",
            "id":"45f653d7-da5c-4cb8-8ae7-b4fd875862f8",
            "status":"final",
            "category":[
               {
                  "coding":[
                     {
                        "system":"http://terminology.hl7.org/CodeSystem/observation-category",
                        "code":"laboratory",
                        "display":"Laboratory"
                     }
                  ]
               }
            ],
            "code":{
               "coding":[
                  {
                     "code":"1305AAAAAAAAAAAAAAAAAAAAAAAAAAAAAAAA",
                     "display":"HIV VIRAL LOAD, QUALITATIVE"
                  },
                  {
                     "system":"https://openconceptlab.org/orgs/CIEL/sources/CIEL",
                     "code":"1305",
                     "display":"HIV VIRAL LOAD, QUALITATIVE"
                  }
               ]
            },
            "subject":{
               "reference":"Patient/9c5162a4-1cbb-4239-8813-da2d10be1ff4",
               "type":"Patient",
               "display":"Obs_Test2 Obs_Test2 Obs_Test2 (OpenMRS ID: 10001V)"
            },
            "encounter":{
               "reference":"Encounter/13cbf9b8-24fa-4806-8f2b-8e4f489b1f96",
               "type":"Encounter"
            },
            "effectiveDateTime":"2021-01-26T08:12:28+00:00",
            "issued":"2021-01-26T08:12:28.000+00:00",
            "valueCodeableConcept":{
               "coding":[
                  {
                     "code":"1306AAAAAAAAAAAAAAAAAAAAAAAAAAAAAAAA",
                     "display":"BEYOND DETECTABLE LIMIT"
                  },
                  {
                     "system":"https://openconceptlab.org/orgs/CIEL/sources/CIEL",
                     "code":"1306",
                     "display":"BEYOND DETECTABLE LIMIT"
                  }
               ]
            }
         },
         "request":{
            "method":"POST",
            "url":"Observation"
         }
      },
      {
         "resource":{
            "resourceType":"Observation",
            "id":"98a546bc-77e6-46b1-bb2b-8179cd66e8c3",
            "status":"final",
            "category":[
               {
                  "coding":[
                     {
                        "system":"http://terminology.hl7.org/CodeSystem/observation-category",
                        "code":"exam",
                        "display":"Exam"
                     }
                  ]
               }
            ],
            "code":{
               "coding":[
                  {
                     "code":"5090AAAAAAAAAAAAAAAAAAAAAAAAAAAAAAAA",
                     "display":"Height (cm)"
                  },
                  {
                     "system":"https://openconceptlab.org/orgs/CIEL/sources/CIEL",
                     "code":"5090",
                     "display":"Height (cm)"
                  }
               ]
            },
            "subject":{
               "reference":"Patient/457865b6-8f02-49e2-8a77-21b73eb266d4",
               "type":"Patient",
               "display":"obs_patient2 obs_patient2 obs_patient2 (OpenMRS ID: 10003P)"
            },
            "encounter":{
               "reference":"Encounter/2d0ecfb4-9dec-4daa-a261-e37e426d0d7b",
               "type":"Encounter"
            },
            "effectiveDateTime":"2021-01-26T08:14:44+00:00",
            "issued":"2021-01-26T08:14:44.000+00:00",
            "valueQuantity":{
               "value":99
            }
         },
         "request":{
            "method":"POST",
            "url":"Observation"
         }
      },
      {
         "resource":{
            "resourceType":"Observation",
            "id":"b173843e-12d7-4c7a-b02d-7a1637c008xx",
            "status":"final",
            "category":[
               {
                  "coding":[
                     {
                        "system":"http://terminology.hl7.org/CodeSystem/observation-category",
                        "code":"laboratory",
                        "display":"Laboratory"
                     }
                  ]
               }
            ],
            "code":{
               "coding":[
                  {
                     "code":"856AAAAAAAAAAAAAAAAAAAAAAAAAAAAAAAAA",
                     "display":"HIV viral load"
                  },
                  {
                     "system":"https://openconceptlab.org/orgs/CIEL/sources/CIEL",
                     "code":"856",
                     "display":"HIV viral load"
                  }
               ]
            },
            "subject":{
               "reference":"Patient/337679e5-aae4-4d95-8583-758e6551b953",
               "type":"Patient",
               "display":"Obs_Test1 Obs_Test1 Obs_Test1 (OpenMRS ID: 10000X)"
            },
            "encounter":{
               "reference":"Encounter/4b91bc4f-9eef-4144-a88f-d8998ae932cf",
               "type":"Encounter"
            },
            "effectiveDateTime":"2021-01-26T08:11:12+00:00",
            "issued":"2021-01-26T08:11:12.000+00:00",
            "valueQuantity":{
               "value":23
            }
         },
         "request":{
            "method":"POST",
            "url":"Observation"
         }
      },
      {
         "resource":{
            "resourceType":"Observation",
            "id":"b173843e-12d7-4c7a-b02d-7a1637c008yy",
            "status":"final",
            "category":[
               {
                  "coding":[
                     {
                        "system":"http://terminology.hl7.org/CodeSystem/observation-category",
                        "code":"laboratory",
                        "display":"Laboratory"
                     }
                  ]
               }
            ],
            "code":{
               "coding":[
                  {
                     "code":"856AAAAAAAAAAAAAAAAAAAAAAAAAAAAAAAAA",
                     "display":"HIV viral load"
                  },
                  {
                     "system":"https://openconceptlab.org/orgs/CIEL/sources/CIEL",
                     "code":"856",
                     "display":"HIV viral load"
                  }
               ]
            },
            "subject":{
               "reference":"Patient/337679e5-aae4-4d95-8583-758e6551b953",
               "type":"Patient",
               "display":"Obs_Test1 Obs_Test1 Obs_Test1 (OpenMRS ID: 10000X)"
            },
            "encounter":{
               "reference":"Encounter/4b91bc4f-9eef-4144-a88f-d8998ae932cf",
               "type":"Encounter"
            },
            "effectiveDateTime":"2021-01-26T08:11:12+00:00",
            "issued":"2021-01-26T08:11:12.000+00:00",
            "valueQuantity":{
               "value":23
            }
         },
         "request":{
            "method":"POST",
            "url":"Observation"
         }
      },
      {
         "resource":{
            "resourceType":"Observation",
            "id":"b173843e-12d7-4c7a-b02d-7a1637c008cz",
            "status":"final",
            "category":[
               {
                  "coding":[
                     {
                        "system":"http://terminology.hl7.org/CodeSystem/observation-category",
                        "code":"laboratory",
                        "display":"Laboratory"
                     }
                  ]
               }
            ],
            "code":{
               "coding":[
                  {
                     "code":"856AAAAAAAAAAAAAAAAAAAAAAAAAAAAAAAAA",
                     "display":"HIV viral load"
                  },
                  {
                     "system":"https://openconceptlab.org/orgs/CIEL/sources/CIEL",
                     "code":"856",
                     "display":"HIV viral load"
                  }
               ]
            },
            "subject":{
               "reference":"Patient/337679e5-aae4-4d95-8583-758e6551b9xx",
               "type":"Patient",
               "display":"Obs_Test1 Obs_Test1 Obs_Test1 (OpenMRS ID: 10000X)"
            },
            "encounter":{
               "reference":"Encounter/4b91bc4f-9eef-4144-a88f-d8998ae932cf",
               "type":"Encounter"
            },
            "effectiveDateTime":"2021-01-26T08:11:12+00:00",
            "issued":"2021-01-26T08:11:12.000+00:00",
            "valueQuantity":{
               "value":2000
            }
         },
         "request":{
            "method":"POST",
            "url":"Observation"
         }
      },
      {
         "resource":{
            "resourceType":"Observation",
            "id":"e9ba1769-93cb-40fe-a567-51473c809538",
            "status":"final",
            "category":[
               {
                  "coding":[
                     {
                        "system":"http://terminology.hl7.org/CodeSystem/observation-category",
                        "code":"exam",
                        "display":"Exam"
                     }
                  ]
               }
            ],
            "code":{
               "coding":[
                  {
                     "code":"5090AAAAAAAAAAAAAAAAAAAAAAAAAAAAAAAA",
                     "display":"Height (cm)"
                  },
                  {
                     "system":"https://openconceptlab.org/orgs/CIEL/sources/CIEL",
                     "code":"5090",
                     "display":"Height (cm)"
                  }
               ]
            },
            "subject":{
               "reference":"Patient/5f5a1daf-e25b-43c7-9b4f-6764294abe1a",
               "type":"Patient",
               "display":"obs_patient1 obs_patient1 obs_patient1 (OpenMRS ID: 10002T)"
            },
            "encounter":{
               "reference":"Encounter/95feb82a-b2b1-4b1a-9f9b-c1920a9d895e",
               "type":"Encounter"
            },
            "effectiveDateTime":"2021-01-26T08:15:30+00:00",
            "issued":"2021-01-26T08:15:30.000+00:00",
            "valueQuantity":{
               "value":44
            }
         },
         "request":{
            "method":"POST",
            "url":"Observation"
         }
      },
      {
         "resource":{
            "resourceType":"Encounter",
            "id":"2d0ecfb4-9dec-4daa-a261-e37e426d0d7b",
            "meta":{
               "profile":[
                  "http://hl7.org/fhir/us/qicore/StructureDefinition/qicore-encounter"
               ]
            },
            "status":"finished",
            "class":{
               "system":"http://terminology.hl7.org/CodeSystem/v3-ActCode",
               "code":"AMB",
               "display":"ambulatory"
            },
            "type":[
               {
                  "coding":[
                     {
                        "system":"http://snomed.info/sct",
                        "version":"2020-09",
                        "code":"185463005",
                        "display":"Visit out of hours (procedure)"
                     }
                  ]
               }
            ],
            "subject":{
               "reference":"Patient/457865b6-8f02-49e2-8a77-21b73eb266d4"
            },
            "period":{
               "start":"2021-01-26T08:11:12+00:00",
               "end":"2021-01-26T08:15:30.000+00:00"
            }
         },
         "request":{
            "method":"PUT",
            "url":"Encounter/2d0ecfb4-9dec-4daa-a261-e37e426d0d7b"
         }
      },
      {
         "resource":{
            "resourceType":"Encounter",
            "id":"95feb82a-b2b1-4b1a-9f9b-c1920a9d895e",
            "meta":{
               "profile":[
                  "http://hl7.org/fhir/us/qicore/StructureDefinition/qicore-encounter"
               ]
            },
            "status":"finished",
            "class":{
               "system":"http://terminology.hl7.org/CodeSystem/v3-ActCode",
               "code":"AMB",
               "display":"ambulatory"
            },
            "type":[
               {
                  "coding":[
                     {
                        "system":"http://snomed.info/sct",
                        "version":"2020-09",
                        "code":"185463005",
                        "display":"Visit out of hours (procedure)"
                     }
                  ]
               }
            ],
            "subject":{
               "reference":"Patient/5f5a1daf-e25b-43c7-9b4f-6764294abe1a"
            },
            "period":{
               "start":"2021-01-26T08:11:12+00:00",
               "end":"2021-01-26T08:15:30.000+00:00"
            }
         },
         "request":{
            "method":"PUT",
            "url":"Encounter/95feb82a-b2b1-4b1a-9f9b-c1920a9d895e"
         }
      },
      {
         "resource":{
            "resourceType":"Encounter",
            "id":"13cbf9b8-24fa-4806-8f2b-8e4f489b1f96",
            "meta":{
               "profile":[
                  "http://hl7.org/fhir/us/qicore/StructureDefinition/qicore-encounter"
               ]
            },
            "status":"finished",
            "class":{
               "system":"http://terminology.hl7.org/CodeSystem/v3-ActCode",
               "code":"AMB",
               "display":"ambulatory"
            },
            "type":[
               {
                  "coding":[
                     {
                        "system":"http://snomed.info/sct",
                        "version":"2020-09",
                        "code":"185463005",
                        "display":"Visit out of hours (procedure)"
                     }
                  ]
               }
            ],
            "subject":{
               "reference":"Patient/9c5162a4-1cbb-4239-8813-da2d10be1ff4"
            },
            "period":{
               "start":"2021-01-26T08:11:12+00:00",
               "end":"2021-01-26T08:15:30.000+00:00"
            }
         },
         "request":{
            "method":"PUT",
            "url":"Encounter/13cbf9b8-24fa-4806-8f2b-8e4f489b1f96"
         }
      },
      {
         "resource":{
            "resourceType":"Encounter",
            "id":"4b91bc4f-9eef-4144-a88f-d8998ae932cf",
            "meta":{
               "profile":[
                  "http://hl7.org/fhir/us/qicore/StructureDefinition/qicore-encounter"
               ]
            },
            "status":"finished",
            "class":{
               "system":"http://terminology.hl7.org/CodeSystem/v3-ActCode",
               "code":"AMB",
               "display":"ambulatory"
            },
            "type":[
               {
                  "coding":[
                     {
                        "system":"http://snomed.info/sct",
                        "version":"2020-09",
                        "code":"185463005",
                        "display":"Visit out of hours (procedure)"
                     }
                  ]
               }
            ],
            "subject":{
               "reference":"Patient/337679e5-aae4-4d95-8583-758e6551b953"
            },
            "period":{
               "start":"2021-01-26T08:11:12+00:00",
               "end":"2021-01-26T08:15:30.000+00:00"
            }
         },
         "request":{
            "method":"PUT",
            "url":"Encounter/4b91bc4f-9eef-4144-a88f-d8998ae932cf"
         }
      },
      {
         "resource":{
            "resourceType":"Patient",
            "id":"457865b6-8f02-49e2-8a77-21b73eb266d4",
            "active":true,
            "name":[
               {
                  "family":"Hadi",
                  "given":[
                     "Bareera"
                  ]
               }
            ],
            "gender":"female",
            "birthDate":"1999-01-14"
         }
      },
      {
         "resource":{
            "resourceType":"Patient",
            "id":"5f5a1daf-e25b-43c7-9b4f-6764294abe1a",
            "active":true,
            "name":[
               {
                  "family":"Hadi",
                  "given":[
                     "Bareera"
                  ]
               }
            ],
            "gender":"female",
            "birthDate":"1999-01-14"
         }
      },
      {
         "resource":{
            "resourceType":"Patient",
            "id":"9c5162a4-1cbb-4239-8813-da2d10be1ff4",
            "active":true,
            "name":[
               {
                  "family":"Hadi",
                  "given":[
                     "Bareera"
                  ]
               }
            ],
            "gender":"female",
            "birthDate":"1999-01-14"
         }
      },
      {
         "resource":{
            "resourceType":"Patient",
            "id":"337679e5-aae4-4d95-8583-758e6551b953",
            "active":true,
            "name":[
               {
                  "family":"Hadi",
                  "given":[
                     "Bareera"
                  ]
               }
            ],
            "gender":"female",
            "birthDate":"1999-01-14"
         }
      },
      {
         "resource":{
            "resourceType":"Patient",
            "id":"337679e5-aae4-4d95-8583-758e6551b9xx",
            "active":true,
            "name":[
               {
                  "family":"Hadi",
                  "given":[
                     "Bareera"
                  ]
               }
            ],
            "gender":"female",
            "birthDate":"1999-01-14"
         }
      },
      {
	    "resource": {
	      "resourceType": "EpisodeOfCare",
	      "id": "episodeofcare-patient-1",
	      "status": "active",
	      "type": [ {
	        "coding": [ {
	          "system": "http://fhir.org/guides/who/anc-cds/CodeSystem/anc-care-codes",
	          "code": "ANC.Case",
	          "display": "Antenatal care case"
	        } ]
	      } ],
	      "patient": {
	        "reference": "Patient/457865b6-8f02-49e2-8a77-21b73eb266d4",
	        "display": "Bareera Hadi"
	      },
	      "period": {
	        "start": "2019-09-03T10:00:00",
	        "end": "2024-06-03T10:00:00"
	      }
	    }
	  },
      {
	    "resource": {
	      "resourceType": "EpisodeOfCare",
	      "id": "episodeofcare-patient-2",
	      "status": "active",
	      "type": [ {
	        "coding": [ {
	          "system": "http://fhir.org/guides/who/anc-cds/CodeSystem/anc-care-codes",
	          "code": "ANC.Case",
	          "display": "Antenatal care case"
	        } ]
	      } ],
	      "patient": {
	        "reference": "Patient/5f5a1daf-e25b-43c7-9b4f-6764294abe1a",
	        "display": "Bareera Hadi"
	      },
	      "period": {
	        "start": "2019-09-03T10:00:00",
	        "end": "2024-06-03T10:00:00"
	      }
	    }
	  },
      {
	    "resource": {
	      "resourceType": "EpisodeOfCare",
	      "id": "episodeofcare-patient-3",
	      "status": "active",
	      "type": [ {
	        "coding": [ {
	          "system": "http://fhir.org/guides/who/anc-cds/CodeSystem/anc-care-codes",
	          "code": "ANC.Case",
	          "display": "Antenatal care case"
	        } ]
	      } ],
	      "patient": {
	        "reference": "Patient/9c5162a4-1cbb-4239-8813-da2d10be1ff4",
	        "display": "Bareera Hadi"
	      },
	      "period": {
	        "start": "2019-09-03T10:00:00",
	        "end": "2024-06-03T10:00:00"
	      }
	    }
	  },
      {
	    "resource": {
	      "resourceType": "EpisodeOfCare",
	      "id": "episodeofcare-patient-4",
	      "status": "active",
	      "type": [ {
	        "coding": [ {
	          "system": "http://fhir.org/guides/who/anc-cds/CodeSystem/anc-care-codes",
	          "code": "ANC.Case",
	          "display": "Antenatal care case"
	        } ]
	      } ],
	      "patient": {
	        "reference": "Patient/337679e5-aae4-4d95-8583-758e6551b953",
	        "display": "Bareera Hadi"
	      },
	      "period": {
	        "start": "2019-09-03T10:00:00",
	        "end": "2024-06-03T10:00:00"
	      }
	    }
	  },
      {
	    "resource": {
	      "resourceType": "EpisodeOfCare",
	      "id": "episodeofcare-patient-5",
	      "status": "active",
	      "type": [ {
	        "coding": [ {
	          "system": "http://fhir.org/guides/who/anc-cds/CodeSystem/anc-care-codes",
	          "code": "ANC.Case",
	          "display": "Antenatal care case"
	        } ]
	      } ],
	      "patient": {
	        "reference": "Patient/337679e5-aae4-4d95-8583-758e6551b9xx",
	        "display": "Bareera Hadi"
	      },
	      "period": {
	        "start": "2019-09-03T10:00:00",
	        "end": "2024-06-03T10:00:00"
	      }
	    }
	  }
   ]
}